Folder: datalab/pydatalab/example_data/TGA

Note: README.md
# datalabvue
* The new and slightly improved data management system
* Someone think of a good name that isn't taken by Google

## 15 Mar 21 Update:
In this commit, the file system has been completely re-worked. In order to get the new version to run, you will need to create a new collection in your db called "files" (in addition to the "data" collection).

If you don't have any data you want to keep, just delete all the documents in "data" and start over. Things should run. If you want to save old data, you can try going to `server/`, activating the pipenv (`pipenv shell`) and running `python migrate_files_to_files_ObjectId_v2.py`. 

In order to use remote filesystems, you will have to (connect to the chem VPN and) mount Grey group data backup servers on your computer. Then, go into `resources.py` and change the folders to the folders you are interested in. The remote access is currently very slow, so I recommend you restrict the folders to be as small as possible- i.e. just your personal folder on each given server. 

## Installation:

Before starting, be warnedâ€“ the javascript app environment installation will take up at least 300 mb.
Choose where you would like to put the direcotry, and `git clone https://github.com/the-grey-group/datalab.git` 

This repository includes two pieces: a python-based flask server, and a javascript-based vue web application. To install, you will need to install environments for each part.

### Server
1. Make sure you have a recent version of python 3 (tested with python 3.8 and above)
2. install pipenv if you don't have it (`pip install pipenv`)
4. install MongoDB community edition if you don't have it (https://docs.mongodb.com/manual/installation/)
	* if on mac, you may want to do this with homebrew
	* I recommend also installing [MongoDB Compass](https://www.mongodb.com/products/compass), or another GUI client
5. Setup mongodb to run as a service on your computer (or run manually each time you use the site)
6. In mongodb, create a Database called "datalabvue" with a collection called "data". You can do this with the mongo shell or in Compass
7. go into `datalabvue/server` directory and install the python dependencies with pipenv:

	`pipenv install`
  
8. Once the pipenv is set up, activate it from the terminal by typing:

  `pipenv shell`

9. Run the server:
  
  `python main.py`
 
Now, the server should be accessible from localhost:5001/ (there isn't much to see there since this server renders no content, just JSON). 
When the source code is changed, the server will generally automatically reload without needing to manually stop and start the server, though sometimes
this will be necessary. 

NOTE: You may have to chage the `MONGO_URI` config in `main.py` depending on your mongodb setup.

### Web app
1. In a separate terminal window, navigate to `datalabvue/webapp`
2. Make sure you have `npm` installed ("https://www.npmjs.com/get-npm") and updated (`npm install npm@latest -g`, or `sudo sudo npm install npm@lat

File: 20221128 134958 TGA MS Megan.asc
Sourcefile	20221128 134958 TGA MS Megan.qmp
Exporttime	28/11/2022 15:24:02

Start Time	28/11/2022 13:51:12
End Time	28/11/2022 15:21:44

		14			16			Water			Nitrogen/Carbonmonoxide			Oxygen			Argon			Carbondioxide
Time	Time Relative [s]	Partial Pressure [mbar]	Time	Time Relative [s]	Partial Pressure [mbar]	Time	Time Relative [s]	Partial Pressure [mbar]	Time	Time Relative [s]	Partial Pressure [mbar]	Time	Time Relative [s]	Partial Pressure [mbar]	Time	Time Relative [s]	Partial Pressure [mbar]	Time	Time Relative [s]	Partial Pressure [mbar]
28/11/2022 13:51:12	0.000	1.083137e-011	28/11/2022 13:51:12	0.222	8.512007e-012	28/11/2022 13:51:12	0.445	-1.415928e-013	28/11/2022 13:51:13	1.536	3.765051e-013	28/11/2022 13:51:14	2.628	2.359224e-013	28/11/2022 13:51:15	2.860	8.967970e-015	28/11/2022 13:51:16	3.951	7.596080e-014
28/11/2022 13:53:55	163.370	1.059321e-011	28/11/2022 13:53:55	163.583	8.551184e-012	28/11/2022 13:53:55	163.801	1.113353e-013	28/11/2022 13:53:56	164.840	3.329605e-013	28/11/2022 13:53:58	165.880	1.660003e-013	28/11/2022 13:53:58	166.093	3.212035e-014	28/11/2022 13:53:59	167.134	4.022924e-014
28/11/2022 13:56:38	326.473	1.066320e-011	28/11/2022 13:56:38	326.686	8.987833e-012	28/11/2022 13:56:39	326.904	7.902037e-014	28/11/2022 13:56:40	327.945	3.560481e-013	28/11/2022 13:56:41	328.987	1.759566e-013	28/11/2022 13:56:41	329.200	5.474932e-014	28/11/2022 13:56:42	330.239	4.159540e-014
28/11/2022 13:59:21	489.620	1.077805e-011	28/11/2022 13:59:21	489.832	9.178289e-012	28/11/2022 13:59:22	490.051	9.934807e-014	28/11/2022 13:59:23	491.091	3.406660e-013	28/11/2022 13:59:24	492.133	1.578789e-013	28/11/2022 13:59:24	492.346	4.645095e-014	28/11/2022 13:59:25	493.386	3.951193e-014
28/11/2022 14:02:04	652.718	1.075485e-011	28/11/2022 14:02:05	652.931	9.021079e-012	28/11/2022 14:02:05	653.149	6.932614e-014	28/11/2022 14:02:06	654.190	3.340011e-013	28/11/2022 14:02:07	655.230	1.425576e-013	28/11/2022 14:02:07	655.449	2.933805e-014	28/11/2022 14:02:08	656.492	3.194712e-014
28/11/2022 14:04:48	815.858	1.078936e-011	28/11/2022 14:04:48	816.070	8.741930e-012	28/11/2022 14:04:48	816.288	6.076911e-014	28/11/2022 14:04:49	817.329	3.116304e-013	28/11/2022 14:04:50	818.369	1.640613e-013	28/11/2022 14:04:50	818.582	4.396149e-014	28/11/2022 14:04:51	819.626	4.169675e-014
28/11/2022 14:07:31	978.988	1.098691e-011	28/11/2022 14:07:31	979.201	9.020171e-012	28/11/2022 14:07:31	979.421	9.693296e-014	28/11/2022 14:07:32	980.462	3.126772e-013	28/11/2022 14:07:33	981.503	1.361620e-013	28/11/2022 14:07:33	981.716	3.578313e-014	28/11/2022 14:07:34	982.756	3.670922e-014
28/11/2022 14:10:14	1142.124	1.090948e-011	28/11/2022 14:10:14	1142.337	8.917799e-012	28/11/2022 14:10:14	1142.551	5.464209e-014	28/11/2022 14:10:15	1143.589	3.331907e-013	28/11/2022 14:10:16	1144.630	1.492036e-013	28/11/2022 14:10:16	1144.842	4.681178e-014	28/11/2022 14:10:18	1145.882	3.418791e-014
28/11/2022 14:12:57	1305.248	1.093696e-011	28/11/2022 14:12:57	1305.461	9.269306e-012	28/11/2022 14:12:57	1305.682	9.416033e-014	28/11/2022 14:12:58	1306.722	3.193088e-013	28/11/2022 14:12:59	1307.765	1.444812e-013	28/11/2022 14:13:00	1307.977	3.676930e-014	28/11/2022 14:13:01	1309.017	3.597215e-014
28/11/2022 14:15:40	1468.426	1.065936e-011	28/11/2022 14:15:40	1468.639	9.086244e-012	28/11/2022 14:15:41	1468.856	1.053922e-013	28/11/2022 14:15:42	1469.897	3.138740e-013	28/11/2022 14:15:43	1470.938	1.414534e-013	28/11/2022 14:15:43	1471.151	5.440918e-014	28/11/2022 14:15:44	1472.192	3.420580e-014
28/11/2022 14:18:23	1631.542	1.094758e-011	28/11/2022 14:18:23	1631.754	8.922131e-012	28/11/2022 14:18:24	1631.972	8.399749e-014	28/11/2022 14:18:25	1633.014	3.131761e-013	28/11/2022 14:18:26	1634.055	1.386908e-013	28/11/2022 14:18:26	1634.268	3.714076e-014	28/11/2022 14:18:27	1635.309	3.674295e-014
28/11/2022 14:21:06	1794.684	1.044874e-011	28/11/2022 14:21:07	1794.898	8.893333e-012	28/11/2022 14:21:07	1795.116	7.004775e-014	28/11/2022 14:21:08	1796.158	3.285522e-013	28/11/2022 14:21:09	1797.198	1.415510e-013	28/11/2022 14:21:09	1797.412	5.322445e-014	28/11/2022 14:21:10	1798.453	2.974874e-014
28/11/2022 14:23:49	1957.767	1.054923e-011	28/11/2022 14:23:50	1957.981	8.933359e-012	28/11/2022 14:23:50	1958.199	7.067596e-014	28/11/2022 14:23:51	1959.240	3.359659e-013	28/11/2022 14:23:52	1960.280	1.469739e-013	28/11/2022 14:23:52	1960.493	4.774946e-014	28/11/2022 14:23:53	1961.534	3.079612e-014
28/11/2022 14:26:33	2120.890	1.058463e-011	28/11/2022 14:26:33	2121.103	9.154951e-012	28/11/2022 14:26:33	2121.320	8.408508e-014	28/11/2022 14:26:34	2122.358	3.549451e-013	28/11/2022 14:26:35	2123.398	1.564738e-013	28/11/2022 14:26:35	2123.612	3.737918e-014	28/11/2022 14:26:36	2124.652	3.466799e-014
28/11/2022 14:29:16	2283.994	1.089147e-011	28/11/2022 14:29:16	2284.207	9.061204e-012	28/11/2022 14:29:16	2284.425	5.984225e-014	28/11/2022 14:29:17	2285.467	3.085100e-013	28/11/2022 14:29:18	2286.509	1.489287e-013	28/11/2022 14:29:18	2286.722	3.806042e-014	28/11/2022 14:29:19	2287.761	3.115486e-014
28/11/2022 14:31:59	2447.132	1.078224e-011	28/11/2022 14:31:59	2447.346	8.893827e-012	28/11/2022 14:31:59	2447.563	1.228009e-013	28/11/2022 14:32:00	2448.603	3.162746e-013	28/11/2022 14:32:01	2449.645	1.458170e-013	28/11/2022 14:32:02	2449.858	3.742822e-014	28/11/2022 14:32:03	2450.897	2.960432e-014
28/11/2022 14:34:42	2610.222	1.059227e-011	28/11/2022 14:34:42	2610.434	9.099049e-012	28/11/2022 14:34:42	2610.652	6.324675e-014	28/11/2022 14:34:43	2611.694	3.003562e-013	28/11/2022 14:34:44	2612.736	1.357421e-013	28/11/2022 14:34:45	2612.954	3.384961e-014	28/11/2022 14:34:46	2613.994	2.815057e-014
28/11/2022 14:37:25	2773.371	1.094025e-011	28/11/2022 14:37:25	2773.584	8.819852e-012	28/11/2022 14:37:25	2773.801	8.234830e-014	28/11/2022 14:37:26	2774.842	3.176248e-013	28/11/2022 14:37:28	2775.880	1.419192e-013	28/11/2022 14:37:28	2776.093	4.969994e-014	28/11/2022 14:37:29	2777.135	2.546565e-014
28/11/2022 14:40:08	2936.484	1.050921e-011	28/11/2022 14:40:08	2936.696	8.747552e-012	28/11/2022 14:40:09	2936.914	6.299626e-014	28/11/2022 14:40:10	2937.955	3.159781e-013	28/11/2022 14:40:11	2938.994	1.288414e-013	28/11/2022 14:40:11	2939.207	3.381020e-014	28/11/2022 14:40:12	2940.249	2.691256e-014
28/11/2022 14:42:51	3099.655	1.040261e-011	28/11/2022 14:42:52	3099.868	8.854297e-012	28/11/2022 14:42:52	3100.088	6.930761e-014	28/11/2022 14:42:53	3101.128	3.039085e-013	28/11/2022 14:42:54	3102.169	1.274721e-013	28/11/2022 14:42:54	3102.383	4.371061e-014	28/11/2022 14:42:55	3103.421	3.190028e-014
28/11/2022 14:45:34	3262.761	1.084363e-011	28/11/2022 14:45:35	3262.974	8.704377e-012	28/11/2022 14:45:35	3263.187	7.968912e-014	28/11/2022 14:45:36	3264.227	3.174377e-013	28/11/2022 14:45:37	3265.269	1.327428e-013	28/11/2022 14:45:37	3265.483	3.760887e-014	28/11/2022 14:45:38	3266.522	3.472710e-014
28/11/2022 14:48:18	3425.895	1.045441e-011	28/11/2022 14:48:18	3426.108	9.127976e-012	28/11/2022 14:48:18	3426.325	6.502844e-014	28/11/2022 14:48:19	3427.365	3.185417e-013	28/11/2022 14:48:20	3428.404	1.281928e-013	28/11/2022 14:48:20	3428.617	4.261378e-014	28/11/2022 14:48:21	3429.658	2.561259e-014
28/11/2022 14:51:01	3589.013	1.062149e-011	28/11/2022 14:51:01	3589.226	8.720833e-012	28/11/2022 14:51:01	3589.438	5.810865e-014	28/11/2022 14:51:02	3590.478	3.158978e-013	28/11/2022 14:51:03	3591.516	1.351058e-013	28/11/2022 14:51:03	3591.729	2.850119e-014	28/11/2022 14:51:04	3592.770	2.867393e-014
28/11/2022 14:53:44	3752.151	1.071916e-011	28/11/2022 14:53:44	3752.364	8.923704e-012	28/11/2022 14:53:44	3752.590	6.694423e-014	28/11/2022 14:53:45	3753.630	3.064867e-013	28/11/2022 14:53:46	3754.670	1.343022e-013	28/11/2022 14:53:47	3754.884	4.788201e-014	28/11/2022 14:53:48	3755.925	2.602481e-014
28/11/2022 14:56:27	3915.301	1.061596e-011	28/11/2022 14:56:27	3915.514	9.013680e-012	28/11/2022 14:56:27	3915.733	7.563105e-014	28/11/2022 14:56:28	3916.773	2.907146e-013	28/11/2022 14:56:29	3917.814	1.394045e-013	28/11/2022 14:56:30	3918.028	4.425878e-014	28/11/2022 14:56:31	3919.066	3.373654e-014
28/11/2022 14:59:10	4078.469	1.039276e-011	28/11/2022 14:59:10	4078.682	8.895053e-012	28/11/2022 14:59:11	4078.895	9.254409e-014	28/11/2022 14:59:12	4079.936	2.980415e-013	28/11/2022 14:59:13	4080.977	1.066592e-013	28/11/2022 14:59:13	4081.189	1.826657e-014	28/11/2022 14:59:14	4082.229	3.211672e-014
28/11/2022 15:01:53	4241.614	1.062228e-011	28/11/2022 15:01:53	4241.827	9.052453e-012	28/11/2022 15:01:54	4242.039	7.120889e-014	28/11/2022 15:01:55	4243.079	3.068855e-013	28/11/2022 15:01:56	4244.118	1.376150e-013	28/11/2022 15:01:56	4244.330	2.766128e-014	28/11/2022 15:01:57	4245.371	2.487633e-014
28/11/2022 15:04:36	4404.752	1.053687e-011	28/11/2022 15:04:37	4404.966	8.814454e-012	28/11/2022 15:04:37	4405.183	1.062247e-013	28/11/2022 15:04:38	4406.224	2.924257e-013	28/11/2022 15:04:39	4407.264	1.211967e-013	28/11/2022 15:04:39	4407.477	2.181880e-014	28/11/2022 15:04:40	4408.518	1.738581e-014
28/11/2022 15:07:19	4567.839	1.052825e-011	28/11/2022 15:07:20	4568.052	8.858301e-012	28/11/2022 15:07:20	4568.270	8.827378e-014	28/11/2022 15:07:21	4569.311	3.101113e-013	28/11/2022 15:07:22	4570.350	1.263869e-013	28/11/2022 15:07:22	4570.564	4.041534e-014	28/11/2022 15:07:23	4571.605	2.443536e-014
28/11/2022 15:10:03	4730.928	1.054897e-011	28/11/2022 15:10:03	4731.141	8.819724e-012	28/11/2022 15:10:03	4731.358	3.242912e-014	28/11/2022 15:10:04	4732.398	3.033936e-013	28/11/2022 15:10:05	4733.440	1.041254e-013	28/11/2022 15:10:05	4733.654	3.026332e-014	28/11/2022 15:10:06	4734.693	1.942101e-014
28/11/2022 15:12:46	4894.081	1.060647e-011	28/11/2022 15:12:46	4894.294	8.830884e-012	28/11/2022 15:12:46	4894.513	5.882596e-014	28/11/2022 15:12:47	4895.555	3.104544e-013	28/11/2022 15:12:48	4896.594	1.316281e-013	28/11/2022 15:12:48	4896.806	2.821867e-014	28/11/2022 15:12:50	4897.848	2.183726e-014
28/11/2022 15:15:29	5057.200	1.083245e-011	28/11/2022 15:15:29	5057.413	8.804311e-012	28/11/2022 15:15:29	5057.627	6.570519e-014	28/11/2022 15:15:30	5058.668	2.648104e-013	28/11/2022 15:15:31	5059.708	1.201963e-013	28/11/2022 15:15:32	5059.921	2.808123e-014	28/11/2022 15:15:33	5060.961	1.990150e-014
28/11/2022 15:18:12	5220.283	1.080046e-011	28/11/2022 15:18:12	5220.496	8.925917e-012	28/11/2022 15:18:12	5220.714	4.614814e-014	28/11/2022 15:18:13	5221.753	2.954586e-013	28/11/2022 15:18:14	5222.793	9.972037e-014	28/11/2022 15:18:15	5223.007	1.898919e-014	28/11/2022 15:18:16	5224.047	9.216487e-015
28/11/2022 15:20:55	5383.426	1.045724e-011	28/11/2022 15:20:55	5383.638	8.651830e-012	28/11/2022 15:20:56	5383.852	5.592992e-014	28/11/2022 15:20:57	5384.893	2.724565e-013	28/11/2022 15:20:58	5385.934	1.060882e-013	28/11/2022 15:20:58	5386.147	1.514426e-014	28/11/2022 15:20:59	5387.186	1.231902e-014
28/11/2022 15:21:43	5431.151	1.067100e-011	28/11/2022 15:21:43	5431.364	8.718997e-012	28/11/2022 15:21:43	5431.577	4.948199e-014