Folder: datalab/pydatalab/example_data/XRD

Note: README.md
# datalabvue
* The new and slightly improved data management system
* Someone think of a good name that isn't taken by Google

## 15 Mar 21 Update:
In this commit, the file system has been completely re-worked. In order to get the new version to run, you will need to create a new collection in your db called "files" (in addition to the "data" collection).

If you don't have any data you want to keep, just delete all the documents in "data" and start over. Things should run. If you want to save old data, you can try going to `server/`, activating the pipenv (`pipenv shell`) and running `python migrate_files_to_files_ObjectId_v2.py`. 

In order to use remote filesystems, you will have to (connect to the chem VPN and) mount Grey group data backup servers on your computer. Then, go into `resources.py` and change the folders to the folders you are interested in. The remote access is currently very slow, so I recommend you restrict the folders to be as small as possible- i.e. just your personal folder on each given server. 

## Installation:

Before starting, be warnedâ€“ the javascript app environment installation will take up at least 300 mb.
Choose where you would like to put the direcotry, and `git clone https://github.com/the-grey-group/datalab.git` 

This repository includes two pieces: a python-based flask server, and a javascript-based vue web application. To install, you will need to install environments for each part.

### Server
1. Make sure you have a recent version of python 3 (tested with python 3.8 and above)
2. install pipenv if you don't have it (`pip install pipenv`)
4. install MongoDB community edition if you don't have it (https://docs.mongodb.com/manual/installation/)
	* if on mac, you may want to do this with homebrew
	* I recommend also installing [MongoDB Compass](https://www.mongodb.com/products/compass), or another GUI client
5. Setup mongodb to run as a service on your computer (or run manually each time you use the site)
6. In mongodb, create a Database called "datalabvue" with a collection called "data". You can do this with the mongo shell or in Compass
7. go into `datalabvue/server` directory and install the python dependencies with pipenv:

	`pipenv install`
  
8. Once the pipenv is set up, activate it from the terminal by typing:

  `pipenv shell`

9. Run the server:
  
  `python main.py`
 
Now, the server should be accessible from localhost:5001/ (there isn't much to see there since this server renders no content, just JSON). 
When the source code is changed, the server will generally automatically reload without needing to manually stop and start the server, though sometimes
this will be necessary. 

NOTE: You may have to chage the `MONGO_URI` config in `main.py` depending on your mongodb setup.

### Web app
1. In a separate terminal window, navigate to `datalabvue/webapp`
2. Make sure you have `npm` installed ("https://www.npmjs.com/get-npm") and updated (`npm install npm@latest -g`, or `sudo sudo npm install npm@lat

File: example_bmb.xye
/* /data/apr17/11bmb_3294.mda APR 12, 2017 01:23:16.4721
# Run no. =               3294
# No. steps =             34053
# Scan time =             APR 12, 2017 01:23:16.4721
# Scan Comment =          UserControl Robotic Collection
# Sample Comment =        ANL0AC4032
# User sample name =      eel69B
# Composition =           MnB
# Proposal number =       51762
# Email(s) =              jdbocarsly@mrl.ucsb.edu, stephendwilson
# Temp (K) =              300.03
# Barcode ID =            UserControl Data
# Start 2theta (deg) =    -6.0
# End 2theta (deg) =      28.0
# Nominal 2theta step (deg) =     0.001
# Time per step (sec) =   0.1
# Actual 2theta step (deg) =     0.0009984375
# 100/Ring Current[0] =   0.983
# Monitor I0 [0] =        8336019.6
# Monitor I1 [0] =        7092664.5
# Gonio._radius [mm] =    1000.0
# Calibration file =      /home/beams/USER11BM/Users/GUP51762/11bmb_3283.calib
# Calibrated wavelength = 0.414581
# Normalization factor  = 8.1774
# */
 0.5 662.407 37.7442
 0.501997 621.629 36.5042
 0.503994 594.195 35.5557
 0.505991 657.432 37.5492
 0.507988 606.714 36.1207
 0.509984 656.346 37.3676
 0.511981 597.998 35.8889
 0.513978 579.779 35.246
 0.515975 516.445 33.1486
 0.517972 567.018 34.5775
 0.519969 542.388 33.9721
 0.521966 547.44 34.1831
 0.523962 556.614 34.1231
 0.525959 574.968 34.8947
 0.527956 550.086 33.9059
 0.529953 546.959 33.8679
 0.53195 535.704 33.3836
 0.533947 550.529 33.9564
 0.535944 539.468 33.7446
 0.537941 525.571 33.2762
 0.539937 512.324 32.9916
 0.541934 543.155 34.0335
 0.543931 513.3 33.0907
 0.545928 545.856 34.1292
 0.547925 474.345 32.0653
 0.549922 494.309 32.4841
 0.551919 487.532 32.2613
 0.553916 479.655 32.0479
 0.555913 440.41 30.7147
 0.557909 471.493 31.7904
 0.559906 489.881 32.4296
 0.561903 481.896 32.2104
 0.5639 494.723 32.4742
 0.565897 422.768 29.9723
 0.567894 470.372 31.6111
 0.569891 430.055 30.3821
 0.571887 544.035 33.7771
 0.573884 432.124 30.2031
 0.575881 443.571 30.6277
 0.577878 416.127 29.4196
 0.579875 446.494 30.5114
 0.581872 437.376 30.4088
 0.583869 454.766 30.7654
 0.585866 413.207 29.3175
 0.587862 424.514 30.0311
 0.589859 427.608 30.1472
 0.591856 416.082 29.7125
 0.593853 427.602 30.2656
 0.59585 413.618 29.7639
 0.597847 400.308 29.5564
 0.599844 385.11 28.6087
 0.601841 433.331 30.5808
 0.603838 415.481 29.8609
 0.605834 468.184 31.5372
 0.607831 369.1 27.9716
 0.609828 395.937 29.1804
 0.611825 409.201 29.5968
 0.613822 345.833 27.1463
 0.615819 364.033 27.9593
 0.617816 407.747 29.3237
 0.619812 383.621 28.5844
 0.621809 377.171 28.258
 0.623806 335.144 26.592
 0.625803 366.146 27.883
 0.6278 343.546 26.8133
 0.629797 325.785 26.2066
 0.631794 346.92 27.0509
 0.633791 370.293 27.6586
 0.635787 324.909 26.1504
 0.637784 299.112 25.2898
 0.639781 394.468 28.8697
 0.641778 353.879 27.4495
 0.643775 378.059 28.3925
 0.645772 334.155 26.7387
 0.647769 371.916 28.3421
 0.649766 337.053 26.8951
 0.651763 338.105 26.9483
 0.653759 309.838 25.7736
 0.655756 352.01 27.5091
 0.657753 324.364 26.2204
 0.65975 298.392 25.3689
 0.661747 327.401 26.364
 0.663744 337.248 26.8176
 0.665741 278.118 24.2941
 0.667737 316.832 25.9164
 0.669734 331.303 26.5821
 0.671731 307.063 25.5384
 0.673728 310.207 25.7211
 0.675725 313.82 25.5944
 0.677722 369.519 27.813
 0.679719 279.82 24.2379
 0.681716 326.529 26.222
 0.683712 299.886 25.0557
 0.685709 279.09 24.3253
 0.687706 229.197 21.925
 0.689703 285.817 24.6082
 0.6917 313.08 25.8503
 0.693697 269.949 24.1604
 0.695694 348.74 27.3146
 0.697691 299.661 25.3436
 0.699688 275.561 24.4204
 0.701684 274.45 24.1798
 0.703681 280.91 24.6114
 0.705678 300.814 25.4226
 0.707675 283.629 24.6338
 0.709672 288.717 24.8549
 0.711669 303.302 25.519
 0.713666 247.34 23.0731
 0.715662 285.064 24.6807
 0.717659 327.368 26.4125
 0.719656 297.702 25.1104
 0.721653 287.603 24.8771
 0.72365 259.43 23.4033
 0.725647 275.6 24.0245
 0.727644 265.928 23.7394
 0.729641 278.066 24.0311
 0.731638 254.932 23.1294
 0.733634 269.709 23.807
 0.735631 306.054 25.2844
 0.737628 274.945 23.9732
 0.739625 300.098 25.4303
 0.741622 293.164 24.9755
 0.743619 294.902 25.2479
 0.745616 264.951 23.6498
 0.747613 236.659 22.6072
 0.749609 259.518 23.6671
 0.751606 240.983 22.7446
 0.753603 282.723 24.6371
 0.7556 252.939 23.3902
 0.757597 269.455 23.8713
 0.759594 280.853 24.5121
 0.761591 254.677 23.4715
 0.763587 277.61 24.2782
 0.765584 250.846 23.1522
 0.767581 224.183 21.8754
 0.769578 247.805 23.0542
 0.771575 250.185 23.0507
 0.773572 252.642 23.109
 0.775569 308.644 25.6416
 0.777566 261.031 23.4346
 0.779563 244.668 22.6805
 0.781559 264.764 23.5985
 0.783556 236.687 22.2609
 0.785553 272.687 23.9362
 0.78755 271.894 24.0438
 0.789547 262.415 23.5991
 0.791544 232.713 22.3621
 0.793541 259.395 23.4337
 0.795538 266.435 23.9434
 0.797534 242.555 22.7202
 0.799531 264.168 23.7439
 0.801528 264.415 23.831
 0.803525 263.647 23.8738
 0.805522 238.092 22.5209
 0.807519 242.548 22.6386
 0.809516 240.552 22.7425
 0.811512 216.639 21.4938
 0.813509 238.214 22.5744
 0.815506 236.953 22.4932
 0.817503 227.994 22.0981
 0.8195 258.994 23.3767
 0.821497 276.828 24.3121
 0.823494 222.117 21.7133
 0.825491 219.874 21.4738
 0.827488 237.91 22.3827
 0.829484 224.865 21.7878
 0.831481 250.488 22.8687
 0.833478 269.508 23.8274
 0.835475 197.501 20.3274
 0.837472 244.573 22.7911
 0.839469 244.452 22.871
 0.841466 223.476 21.7426
 0.843463 237.469 22.6348
 0.845459 202.195 20.9181
 0.847456 238.873 22.5781
 0.849453 212.148 21.4282
 0.85145 236.818 22.6354
 0.853447 206.171 21.0018
 0.855444 218.805 21.6229
 0.857441 247.6 23.0505
 0.859437 218.277 21.6744
 0.861434 233.459 22.2465
 0.863431 262.523 23.7273
 0.865428 190.238 20.1137
 0.867425 233.473 22.2448
 0.869422 228.736 22.0478
 0.871419 243.531 22.6912
 0.873416 218.767 21.58
 0.875413 251.295 22.8995
 0.877409 214.201 21.2511
 0.879406 205.196 20.7184
 0.881403 237.912 22.2792
 0.8834 217.782 21.3507
 0.885397 249.297 22.8051
 0.887394 205.007 20.889
 0.889391 208.99 21.0831
 0.891387 213.339 21.3491
 0.893384 217.772 21.549
 0.895381 226.833 22.0139
 0.897378 234.275 22.4017
 0.899375 201.448 20.8129
 0.901372 242.631 23.0068
 0.903369 195.386 20.3811
 0.905366 198.903 20.7132
 0.907362 237.194 22.548
 0.909359 217.258 21.5631
 0.911356 170.169 19.0423
 0.913353 224.299 21.9189
 0.91535 201.02 20.6664
 0.917347 213.326 21.1653
 0.919344 224.416 21.8089
 0.921341 238.473 22.5067
 0.923338 235.882 22.3949
 0.925334 234.161 22.262
 0.927331 197.481 20.3648
 0.929328 215.207 21.4097
 0.931325 231.659 21.9542
 0.933322 195.759 20.2779
 0.935319 202.02 20.6202
 0.937316 205.314 20.7543
 0.939312 213.954 21.3303
 0.941309 208.551 21.0731
 0.943306 216.131 21.434
 0.945303 226.545 22.0823
 0.9473 176.078 19.476
 0.949297 204.426 21.0708
 0.951294 205.85 20.9013
 0.953291 174.345 19.3862
 0.955287 235.536 22.4321
 0.957284 220.206 21.7901
 0.959281 215.038 21.3901
 0.961278 200.925 20.818
 0.963275 200.599 20.8067
 0.965272 196.735 20.3109
 0.967269 210.589 21.2489
 0.969266 226.636 21.8598
 0.971263 197.605 20.4785
 0.973259 191.566 20.1671
 0.975256 205.284 20.7925
 0.977253 204.743 20.8235
 0.97925 184.071 19.6239
 0.981247 194.014 20.2418
 0.983244 231.148 22.0871
 0.985241 198.439 20.2086
 0.987237 205.457 20.8144
 0.989234 190.8 20.2546
 0.991231 208.115 21.0156
 0.993228 174.942 19.4168
 0.995225 175.248 19.3624
 0.997222 207.895 21.1993
 0.999219 208.195 20.8906
 1.00122 182.269 19.8882
 1.00321 197.617 20.5819
 1.00521 213.633 21.3669
 1.00721 212.038 21.2996
 1.0092 174.207 19.2719
 1.0112 229.368 22.1721
 1.0132 181.533 19.5578
 1.01519 222.424 21.965
 1.01719 201.133 20.7323
 1.01919 202.777 20.7161
 1.02118 187.439 20.0282
 1.02318 163.347 18.5703
 1.02518 201.351 20.7053
 1.02717 179.158 19.4482
 1.02917 157.444 18.3261
 1.03117 156.343 18.1421
 1.03317 197.004 20.2884
 1.03516 167.044 18.7159
 1.03716 197.6 20.415
 1.03916 195.679 20.2982
 1.04115 188.301 20.0752
 1.04315 170.676 19.0591
 1.04515 179.694 19.7016
 1.04714 174.581 19.2626
 1.04914 195.825 20.5645
 1.05114 183.625 19.8759
 1.05313 218.22 21.5116
 1.05513 202.133 20.763
 1.05713 166.999 18.7967
 1.05913 169.28 19.0735
 1.06112 161.196 18.4017
 1.06312 186.607 20.1314
 1.06512 161.147 18.4525
 1.06711 212.662 21.3771
 1.06911 193.592 20.268
 1.07111 174.344 19.1813
 1.0731 196.446 20.5262

File: example_evadiffract.xy
'Id: "" Comment: "Example file from Bruker diffrac.eva export" Operator: "Emmy Noether" Anode: "Cu" Scantype: "Coupled TwoTheta/Theta" TimePerStep: "96"
5.0001 4.852
5.0103 4.097
5.0204 4.667
5.0306 4.410
5.0407 4.484
5.0509 5.542
5.0610 5.244
5.0712 4.579
5.0813 4.856
5.0915 5.335
5.1017 4.999
5.1118 4.624
5.1220 4.898
5.1321 4.363
5.1423 3.871
5.1524 4.346
5.1626 5.583
5.1728 5.091
5.1829 5.001
5.1931 5.310
5.2032 4.702
5.2134 4.534
5.2235 4.486
5.2337 4.715
5.2438 5.022
5.2540 5.130
5.2642 4.412
5.2743 4.324

File: example_mac.xye
0.000	    11.632	     2.650
0.002	    10.541	     2.475
0.004	    11.460	     2.594
0.006	     9.518	     2.282
0.008	    16.624	     3.107
0.010	     7.073	     1.670
0.012	    18.694	     3.415
0.014	    14.172	     2.640
0.016	    14.052	     2.823
0.018	    12.412	     2.418
0.020	    14.752	     2.803
0.022	    20.484	     3.375
0.024	     7.754	     1.933
0.026	    12.620	     2.620
0.028	    21.306	     3.513
0.030	    19.898	     3.264
0.032	    15.690	     2.877
0.034	     7.103	     1.571
0.036	    13.965	     2.597
0.038	    13.141	     2.543
0.040	    13.748	     2.658
0.042	    16.090	     3.032
0.044	     8.818	     2.038
0.046	    16.564	     2.947
0.048	     9.983	     2.178
0.050	    14.947	     2.827
0.052	    12.052	     2.584
0.054	    10.503	     2.385
0.056	    15.117	     2.973
0.058	    12.151	     2.389
0.060	    20.936	     3.230
0.062	     8.937	     2.069
0.064	     9.874	     2.247
0.066	    15.622	     2.459
0.068	     7.567	     1.928
0.070	    10.921	     2.425
0.072	    14.826	     2.986
0.074	    12.483	     2.436
0.076	    17.983	     3.170
0.078	     5.776	     1.628
0.080	    10.980	     2.439
0.082	     6.875	     1.691
0.084	    19.741	     3.209
0.086	    13.953	     2.767
0.088	    11.413	     2.236
0.090	    13.468	     2.747
0.092	    15.377	     2.752
0.094	    11.319	     2.617
0.096	    21.263	     3.179
0.098	    13.475	     2.599
0.100	    10.587	     2.241
0.102	    14.968	     2.871
0.104	     9.479	     1.955
0.106	    16.768	     3.108
0.108	    10.576	     2.201
0.110	    12.638	     2.624
0.112	    15.029	     2.503
0.114	    10.636	     2.473
0.116	    14.348	     2.785
0.118	    19.029	     3.145
0.120	    26.560	     3.977
0.122	    33.264	     3.944
0.124	    56.832	     6.112
0.126	    56.295	     5.164
0.128	    64.727	     6.013
0.130	   101.135	     7.454
0.132	   161.305	     9.243
0.134	   138.452	     8.804
0.136	    78.726	     6.169
0.138	   206.548	    10.891
0.140	   294.337	    12.098
0.142	   265.535	    12.579
0.144	   244.680	    10.965
0.146	   196.625	    10.077
0.148	   459.129	    14.617
0.150	   480.363	    17.179
0.152	   327.717	    12.402
0.154	   332.259	    13.889
0.156	   345.098	    12.659
0.158	   306.693	    13.855
0.160	   318.340	    12.977
0.162	   193.982	    10.549
0.164	   122.477	     7.811
0.166	    98.620	     7.432
0.168	    51.911	     5.346
0.170	    57.398	     5.352
0.172	    32.954	     4.607
0.174	    36.590	     4.326
0.176	    22.595	     3.454
0.178	    22.577	     3.477
0.180	    45.770	     5.365
0.182	    20.998	     3.102
0.184	    18.330	     3.135
0.186	    19.992	     3.205
0.188	    21.323	     3.608
0.190	    18.487	     2.804
0.192	    16.280	     2.898
0.194	    12.889	     2.390
0.196	    10.411	     2.240
0.198	    14.364	     2.702
0.200	    16.186	     3.055
0.202	    15.201	     2.798
0.204	    16.403	     3.005
0.206	    18.418	     3.074
0.208	    10.395	     2.376
0.210	    14.130	     2.619
0.212	    19.701	     3.343
0.214	    12.282	     2.616
0.216	    11.401	     2.374
0.218	    22.919	     3.705
0.220	    13.323	     2.708
0.222	    27.248	     4.107
0.224	    28.867	     3.989
0.226	     8.770	     2.085
0.228	    21.874	     3.198
0.230	    21.728	     3.603
0.232	    21.215	     3.503
0.234	    22.088	     3.657
0.236	    10.537	     2.152
0.238	    19.844	     3.185
0.240	    25.077	     3.778
0.242	    28.337	     3.960
0.244	    14.090	     2.600
0.246	    12.932	     2.495
0.248	    13.484	     2.579
0.250	    16.201	     2.978
0.252	    25.451	     3.797
0.254	    18.012	     3.016
0.256	    35.269	     4.725
0.258	    11.356	     2.443
0.260	    13.190	     2.610
0.262	    29.403	     4.106
0.264	    12.467	     2.540
0.266	    15.336	     2.583
0.268	    35.002	     4.234
0.270	    14.975	     2.451
0.272	    12.893	     2.549
0.274	    18.663	     3.329
0.276	    14.123	     2.770
0.278	    13.157	     2.663
0.280	    15.017	     2.845
0.282	    22.313	     3.803
0.284	    23.084	     3.337
0.286	    32.106	     4.503
0.288	    18.286	     2.983
0.290	    20.686	     3.344
0.292	    11.759	     2.418
0.294	    21.155	     3.248
0.296	    21.003	     3.407
0.298	    17.443	     3.169
0.300	    13.880	     2.464
0.302	    18.505	     3.244
0.304	    22.554	     3.527
0.306	    24.692	     3.844
0.308	    14.041	     2.814
0.310	    13.795	     2.690
0.312	    20.663	     3.250
0.314	    25.765	     3.852
0.316	     9.988	     2.390
0.318	     5.570	     1.475
0.320	    12.266	     2.550
0.322	    16.783	     2.870
0.324	    16.258	     3.219
0.326	    21.253	     3.336
0.328	    21.650	     3.359
0.330	    17.289	     2.834
0.332	    17.593	     3.190
0.334	    18.312	     3.405
0.336	    15.001	     2.839
0.338	    14.113	     2.813
0.340	    29.993	     3.877
0.342	    17.781	     2.905
0.344	    15.114	     2.799
0.346	    11.494	     2.452
0.348	    25.198	     3.336
0.350	    19.762	     3.361
0.352	    15.533	     2.781
0.354	    19.138	     3.125
0.356	    24.398	     3.627
0.358	    15.138	     2.719
0.360	    16.968	     2.927
0.362	    20.810	     3.533
0.364	    26.549	     3.845
0.366	    20.579	     3.328
0.368	    18.260	     3.112
0.370	    11.665	     2.269
0.372	    26.616	     3.698
0.374	    12.559	     2.572
0.376	    22.235	     3.684
0.378	    16.976	     2.886
0.380	    15.801	     2.747
0.382	    21.942	     3.443
0.384	    37.892	     4.683
0.386	    16.688	     2.958
0.388	    10.689	     2.663
0.390	    17.614	     2.843
0.392	    16.741	     2.911
0.394	    18.653	     2.839
0.396	    12.506	     2.704
0.398	    20.526	     3.411
0.400	    16.472	     2.989
0.402	    20.146	     3.197
0.404	    14.758	     2.789
0.406	    10.340	     2.376
0.408	    17.349	     3.036
0.410	    14.653	     2.751
0.412	    22.142	     3.415
0.414	     7.779	     2.018
0.416	    15.494	     2.679
0.418	    12.999	     2.689
0.420	    20.373	     3.182
0.422	    10.889	     2.354
0.424	    22.514	     3.414
0.426	    26.267	     3.625
0.428	    28.796	     3.910
0.430	    23.281	     3.400
0.432	    26.146	     3.816
0.434	    49.964	     5.259
0.436	    29.289	     3.621
0.438	    44.771	     4.723
0.440	    39.424	     4.679
0.442	    45.111	     4.942
0.444	    33.755	     4.243
0.446	    45.581	     4.779
0.448	    30.056	     4.248
0.450	    45.963	     4.755
0.452	    61.633	     5.448
0.454	    54.890	     5.422
0.456	    66.958	     6.294
0.458	    91.339	     7.331
0.460	    70.838	     5.981
0.462	    48.487	     4.927
0.464	    42.065	     4.651
0.466	    60.625	     5.629
0.468	    61.780	     5.503
0.470	    75.658	     6.667
0.472	    84.183	     6.478
0.474	    63.998	     5.908
0.476	    78.096	     6.359
0.478	    68.570	     6.213
0.480	    81.883	     6.665
0.482	    84.946	     6.678
0.484	    75.666	     6.597
0.486	   113.291	     7.611
0.488	    93.915	     6.926
0.490	    84.084	     6.636
0.492	   125.374	     8.496
0.494	   106.644	     7.635
0.496	   124.457	     8.413
0.498	   118.414	     7.654
0.500	   120.299	     8.576
0.502	   103.957	     7.159
0.504	   152.394	     9.551
0.506	   123.162	     7.460
0.508	   187.867	    10.391
0.510	    98.665	     6.874
0.512	    97.656	     7.090
0.514	   101.887	     7.065
0.516	   163.459	     9.189
0.518	   149.450	     8.655
0.520	   134.653	     8.463
0.522	   137.859	     8.632
0.524	    95.008	     7.051
0.526	   130.272	     8.383
0.528	   174.750	     9.346
0.530	   134.531	     8.728
0.532	   132.262	     8.208
0.534	   109.021	     7.323
0.536	   120.118	     7.528
0.538	   126.943	     8.356
0.540	   119.463	     7.927
0.542	   185.759	    10.350
0.544	   195.107	    10.595
0.546	   170.481	     9.750
0.548	   139.935	     8.950
0.550	   121.738	     7.853
0.552	    66.230	     4.897
0.554	   120.992	     8.058
0.556	   130.098	     8.670
0.558	   122.665	     8.064
0.560	   124.165	     8.525
0.562	    95.937	     6.999
0.564	    94.517	     7.315
0.566	    91.486	     6.687
0.568	    73.968	     6.395
0.570	    94.462	     7.081
0.572	   104.666	     7.335
0.574	   109.197	     7.494
0.576	   131.591	     8.356
0.578	    85.436	     6.812
0.580	    70.167	     5.772
0.582	   103.046	     7.636
0.584	    84.906	     6.473
0.586	   104.785	     7.972
0.588	   104.278	     7.349
0.590	    78.855	     6.764
0.592	    88.332	     6.570
0.594	    63.880	     5.810
0.596	   118.143	     7.861
0.598	   113.272	     7.759