Folder: datalab/pydatalab/example_data/XRD (part 2)

File: example_mythen.dat
2.084000 2866.69 53.5415
2.096000 2834.86 53.2434
2.108000 2800.17 52.9166
2.120000 2842.75 53.3175
2.132000 2921.21 54.0482
2.144000 2796.67 52.8835
2.156000 2766.35 52.5961
2.168000 2906.15 53.9087
2.180000 2938.69 54.2097
2.192000 2781.33 52.7383
2.204000 2902.8 53.8776
2.216000 3008.78 54.8524
2.228000 2827.58 53.175
2.240000 2953.26 54.3439
2.252000 2941.11 54.232
2.264000 2882.06 53.6848
2.276000 3013.7 54.8972
2.288000 2900.16 53.8531
2.300000 3047.71 55.2061
2.312000 2910.02 53.9446
2.324000 2988.24 54.6648
2.336000 3002.28 54.793
2.348000 2986.9 54.6525
2.360000 3003.19 54.8014
2.372000 2917.35 54.0125
2.384000 3081.53 55.5116
2.396000 3111.97 55.785
2.408000 2981.81 54.6059
2.420000 3077.59 55.476
2.432000 3010.44 54.8675
2.444000 3062.41 55.339
2.456000 3001.89 54.7895
2.468000 2986.5 54.6489
2.480000 2946.38 54.2806
2.492000 3053.47 55.2582
2.504000 2963.29 54.4361
2.516000 3034.55 55.0868
2.528000 3074.06 55.4442
2.540000 3180.2 56.3932
2.552000 2984.16 54.6274
2.564000 3019.56 54.9505
2.576000 3032.32 55.0665
2.588000 3047.22 55.2016
2.600000 3046.24 55.1928
2.612000 2987.86 54.6614
2.624000 3015.17 54.9105
2.636000 3063.87 55.3522
2.648000 3076.61 55.4672
2.660000 3020 54.9546
2.672000 3119.58 55.8532
2.684000 3072.34 55.4287
2.696000 3022.52 54.9775
2.708000 3013.63 54.8966
2.720000 3139.67 56.0328
2.732000 3116.8 55.8283
2.744000 3117.88 55.838
2.756000 3029.88 55.0444
2.768000 3044.13 55.1736
2.780000 3142.63 56.0592
2.792000 3079.5 55.4932
2.804000 3042.59 55.1597
2.816000 3051.76 55.2427
2.828000 3118.18 55.8407
2.840000 3072.62 55.4312
2.852000 3106.72 55.7379
2.864000 3042.76 55.1612
2.876000 3056.5 55.2856
2.888000 3152.71 56.149
2.900000 3090.04 55.5881
2.912000 3193.59 56.5118
2.924000 3127.91 55.9277
2.936000 3032.99 55.0726
2.948000 3184.44 56.4308
2.960000 3060.36 55.3206
2.972000 3026.18 55.0107
2.984000 3135.97 55.9997
2.996000 3135.15 55.9924
3.008000 3166.57 56.2723
3.020000 3112.44 55.7893
3.032000 3115.53 55.8169
3.044000 3086.7 55.5581
3.056000 3152.15 56.144
3.068000 3138.63 56.0235
3.080000 3016.39 54.9217
3.092000 3211.84 56.6731
3.104000 3145 56.0803
3.116000 3053.87 55.2618
3.128000 3203.86 56.6026
3.140000 3206.34 56.6245
3.152000 3089.57 55.5839
3.164000 3155.7 56.1756
3.176000 3082.23 55.5179
3.188000 3229.17 56.8258
3.200000 3133.95 55.9817
3.212000 3105.72 55.729
3.224000 3165.18 56.2599
3.236000 3153.23 56.1536
3.248000 3104.74 55.7202
3.260000 3150.89 56.1328
3.272000 3227.69 56.8128
3.284000 3120.47 55.8611
3.296000 3173.26 56.3317
3.308000 3214.74 56.6987
3.320000 3045.72 55.188
3.332000 3189.41 56.4749
3.344000 3177.28 56.3674
3.356000 3124.2 55.8946
3.368000 3108.07 55.7501
3.380000 3153.93 56.1598
3.392000 3139.78 56.0338
3.404000 3120.43 55.8608
3.416000 3141.02 56.0448
3.428000 3063.52 55.349
3.440000 3143.82 56.0697
3.452000 3133.69 55.9794
3.464000 3110.96 55.776
3.476000 3180.43 56.3953
3.488000 3182.07 56.4099
3.500000 3183.14 56.4194
3.512000 3112.13 55.7864
3.524000 3146.61 56.0947
3.536000 3283.46 57.3015
3.548000 3140.84 56.0432
3.560000 3083.29 55.5274
3.572000 3157.37 56.1905
3.584000 3220.18 56.7466
3.596000 3102.49 55.7
3.608000 3175.74 56.3537
3.620000 3164.83 56.2568
3.632000 3117.94 55.8385
3.644000 3137.94 56.0173
3.656000 3157.18 56.1888
3.668000 3171.52 56.3163
3.680000 3198.36 56.554
3.692000 3222.61 56.7681
3.704000 3089.8 55.5859
3.716000 3210.78 56.6638
3.728000 3147.16 56.0996
3.740000 3219.83 56.7436
3.752000 3137.83 56.0164
3.764000 3209.16 56.6495
3.776000 3128.67 55.9345
3.788000 3176.45 56.36
3.800000 3141.84 56.0521
3.812000 3085.66 55.5488
3.824000 3118.33 55.842
3.836000 3219.49 56.7405
3.848000 3241.62 56.9352
3.860000 3176.49 56.3603
3.872000 3287.99 57.341
3.884000 3157.26 56.1895
3.896000 3161.41 56.2264
3.908000 3128.04 55.9289
3.920000 3161.02 56.223
3.932000 3247.36 56.9856
3.944000 3127.34 55.9226
3.956000 3238.87 56.9111
3.968000 3133.46 55.9773
3.980000 3245.55 56.9697
3.992000 3183.62 56.4235
4.004000 3190.77 56.4869
4.016000 3264.97 57.1399
4.028000 3159.96 56.2136
4.040000 3226.66 56.8037
4.052000 3185.61 56.4412
4.064000 3177.31 56.3676
4.076000 3252.47 57.0304
4.088000 3199.26 56.562
4.100000 3183.99 56.4269
4.112000 3176.46 56.3601
4.124000 3217.62 56.7241
4.136000 3146.46 56.0933
4.148000 3240.18 56.9226
4.160000 3168.58 56.2901
4.172000 3289.19 57.3514
4.184000 3192.63 56.5033
4.196000 3225.13 56.7902
4.208000 3207.55 56.6352
4.220000 3188.18 56.4639
4.232000 3191.25 56.4911
4.244000 3141.44 56.0486
4.256000 3212.64 56.6802
4.268000 3188.28 56.4649
4.280000 3237.38 56.8979
4.292000 3274.2 57.2206
4.304000 3234.37 56.8715
4.316000 3277.74 57.2515
4.328000 3301.66 57.46
4.340000 3276.55 57.2412
4.352000 3175.62 56.3526
4.364000 3126 55.9107
4.376000 3296.04 57.4112
4.388000 3239.35 56.9153
4.400000 3240.75 56.9276
4.412000 3139.52 56.0314
4.424000 3159.96 56.2136
4.436000 3285.97 57.3234
4.448000 3263.86 57.1302
4.460000 3170.92 56.3109
4.472000 3222.47 56.7668
4.484000 3264.71 57.1377
4.496000 3218.02 56.7276
4.508000 3125.47 55.9059
4.520000 3273.83 57.2174
4.532000 3211.09 56.6665
4.544000 3235.41 56.8806
4.556000 3208.02 56.6394
4.568000 3288.09 57.3419
4.580000 3225.46 56.7931
4.592000 3101.41 55.6903
4.604000 3223.11 56.7724
4.616000 3249.23 57.002
4.628000 3162.01 56.2317
4.640000 3211.95 56.6741
4.652000 3224.79 56.7872
4.664000 3205.7 56.6189
4.676000 3187.96 56.462
4.688000 3138.42 56.0216
4.700000 3143.97 56.0711
4.712000 3321.32 57.6309
4.724000 3186.66 56.4505
4.736000 3140.72 56.0421
4.748000 3223.64 56.7771
4.760000 3210.27 56.6592
4.772000 3229.2 56.826
4.784000 3254.74 57.0504
4.796000 3215.69 56.7071
4.808000 3067.38 55.3839
4.820000 3264.53 57.1361
4.832000 3177.51 56.3694
4.844000 3181.28 56.4028
4.856000 3191.25 56.4912
4.868000 3203.92 56.6032
4.880000 3217.12 56.7197
4.892000 3171.53 56.3164
4.904000 3128.02 55.9287
4.916000 3185.46 56.4399
4.928000 3169.49 56.2982
4.940000 3124.7 55.899
4.952000 3222.6 56.7679
4.964000 3285.69 57.3209
4.976000 3252.86 57.0339
4.988000 3195.2 56.5261
5.000000 3259.56 57.0926

File: example_mythen.xye
2.038000 76131 275.918
2.042000 66343 257.571
2.046000 60502 245.972
2.050000 58150 241.143
2.054000 56412 237.512
2.058000 55123 234.783
2.062000 53971 232.317
2.066000 53188 230.625
2.070000 54024 232.431
2.074000 53292 230.851
2.078000 53469 231.234
2.082000 52889 229.976
2.086000 53168 230.582
2.090000 53371 231.022
2.094000 52916 230.035
2.098000 53496 231.292
2.102000 53343 230.961
2.106000 53620 231.56
2.110000 53646 231.616
2.114000 53524 231.353
2.118000 53705 231.743
2.122000 53505 231.311
2.126000 53688 231.707
2.130000 53922 232.211
2.134000 54236 232.886
2.138000 54310 233.045
2.142000 53962 232.297
2.146000 54222 232.856
2.150000 55096 234.725
2.154000 54517 233.489
2.158000 54560 233.581
2.162000 55165 234.872
2.166000 54692 233.863
2.170000 55456 235.491
2.174000 55524 235.635
2.178000 55197 234.94
2.182000 55153 234.847
2.186000 55525 235.637
2.190000 55760 236.136
2.194000 55877 236.383
2.198000 56447 237.586
2.202000 55403 235.378
2.206000 56343 237.367
2.210000 56813 238.355
2.214000 57553 239.902
2.218000 57033 238.816
2.222000 57970 240.77
2.226000 57339 239.456
2.230000 58282 241.417
2.234000 58364 241.586
2.238000 59331 243.58
2.242000 60224 245.406
2.246000 59706 244.348
2.250000 60354 245.671
2.254000 61154 247.293
2.258000 61661 248.316
2.262000 62631 250.262
2.266000 63572 252.135
2.270000 64879 254.714
2.274000 65929 256.766
2.278000 67451 259.713
2.282000 68661 262.032
2.286000 69910 264.405
2.290000 71842 268.034
2.294000 73201 270.557
2.298000 76228 276.094
2.302000 77395 278.2
2.306000 80773 284.206
2.310000 83256 288.541
2.314000 86421 293.974
2.318000 89546 299.242
2.322000 94388 307.226
2.326000 97704 312.576
2.330000 105132 324.241

File: example_ocx.xy
theta,intensity
5.0000,2.732
5.2800,2.248
5.5600,2.182
5.8400,1.988
6.1200,1.816
6.4000,1.679
6.6800,1.582
6.9600,1.446
7.2400,1.457
7.5200,1.481
7.8000,1.433
8.0800,1.422
8.3600,1.443
8.6400,1.482
8.9200,1.408
9.2000,1.460
9.4800,1.393
9.7600,1.373
10.0400,1.422
10.3200,1.398
10.6000,1.349
10.8800,1.371
11.1600,1.326
11.4400,1.355
11.7200,1.338
12.0000,1.339
12.2800,1.269
12.5600,1.304
12.8400,1.275
13.1200,1.312
13.4000,1.245
13.6800,1.249
13.9600,1.258
14.2400,1.196
14.5200,1.223
14.8000,1.202
15.0800,1.194
15.3600,1.184
15.6400,1.225
15.9200,1.216
16.2000,1.198
16.4800,1.181
16.7600,1.190
17.0400,1.192
17.3200,1.231
17.6000,1.180
17.8800,1.202
18.1600,1.156
18.4400,1.199
18.7200,1.179
19.0000,1.151
19.2800,1.175
19.5600,1.138
19.8400,1.133
20.1200,1.172
20.4000,1.160
20.6800,1.134
20.9600,1.119
21.2400,1.124
21.5200,1.120
21.8000,1.113
22.0800,1.101
22.3600,1.069
22.6400,1.042
22.9200,0.971
23.2000,1.003
23.4800,1.002
23.7600,0.895
24.0400,0.934
24.3200,0.934
24.6000,0.964
24.8800,0.883
25.1600,0.873
25.4400,0.860
25.7200,0.837
26.0000,0.798
26.2800,0.802
26.5600,0.830
26.8400,0.808
27.1200,0.792
27.4000,0.761
27.6800,0.736
27.9600,0.726
28.2400,0.741
28.5200,0.732
28.8000,0.721
29.0800,0.714
29.3600,0.672
29.6400,0.654
29.9200,0.698
30.2000,0.658
30.4800,0.666
30.7600,0.606
31.0400,0.622
31.3200,0.597
31.6000,0.616
31.8800,0.612
32.1600,0.597
32.4400,0.587
32.7200,0.588
33.0000,0.566
33.2800,0.563
33.5600,0.544
33.8400,0.589
34.1200,0.561
34.4000,0.553
34.6800,0.529
34.9600,0.534
35.2400,0.491
35.5200,0.495
35.8000,0.510
36.0800,0.526
36.3600,0.501
36.6400,0.494
36.9200,0.518
37.2000,0.521
37.4800,0.512
37.7600,0.539
38.0400,0.580
38.3200,0.636
38.6000,0.698
38.8800,0.873
39.1600,1.431
39.4400,2.679
39.7200,3.683
40.0000,2.982
40.2800,1.454
40.5600,0.790
40.8400,0.604
41.1200,0.534
41.4000,0.498
41.6800,0.458
41.9600,0.453
42.2400,0.472
42.5200,0.426
42.8000,0.407
43.0800,0.410
43.3600,0.405
43.6400,0.385
43.9200,0.449
44.2000,0.446
44.4800,0.468
44.7600,0.491
45.0400,0.520
45.3200,0.604
45.6000,0.840
45.8800,1.130
46.1600,1.405
46.4400,1.273
46.7200,0.883
47.0000,0.579
47.2800,0.464
47.5600,0.405
47.8400,0.346
48.1200,0.314
48.4000,0.304
48.6800,0.296
48.9600,0.293
49.2400,0.267
49.5200,0.263
49.8000,0.267
50.0800,0.277
50.3600,0.252
50.6400,0.278
50.9200,0.253
51.2000,0.250
51.4800,0.247
51.7600,0.246
52.0400,0.238
52.3200,0.258
52.6000,0.237
52.8800,0.232
53.1600,0.236
53.4400,0.249
53.7200,0.238
54.0000,0.241
54.2800,0.249
54.5600,0.213
54.8400,0.221
55.1200,0.220
55.4000,0.205
55.6800,0.221
55.9600,0.215
56.2400,0.200
56.5200,0.210
56.8000,0.218
57.0800,0.202
57.3600,0.216
57.6400,0.194
57.9200,0.229
58.2000,0.202
58.4800,0.185
58.7600,0.220
59.0400,0.228
59.3200,0.218
59.6000,0.238
59.8800,0.212
60.1600,0.194
60.4400,0.208
60.7200,0.219
61.0000,0.198
61.2800,0.215
61.5600,0.202
61.8400,0.217
62.1200,0.210
62.4000,0.196
62.6800,0.211
62.9600,0.214
63.2400,0.227
63.5200,0.243
63.8000,0.236
64.0800,0.231
64.3600,0.242
64.6400,0.263
64.9200,0.268
65.2000,0.285
65.4800,0.283
65.7600,0.336
66.0400,0.365
66.3200,0.396
66.6000,0.527
66.8800,0.619
67.1600,0.763
67.4400,0.878
67.7200,0.857
68.0000,0.832
68.2800,0.822
68.5600,0.934
68.8400,2.115
69.1200,96.686
69.4000,25.989
69.6800,1.332
69.9600,0.797
70.2400,0.660
70.5200,0.542
70.8000,0.487
71.0800,0.458
71.3600,0.366
71.6400,0.341
71.9200,0.302
72.2000,0.300
72.4800,0.286
72.7600,0.261
73.0400,0.261
73.3200,0.238
73.6000,0.249
73.8800,0.214
74.1600,0.219
74.4400,0.199
74.7200,0.212
75.0000,0.189
75.2800,0.201
75.5600,0.200
75.8400,0.189
76.1200,0.179
76.4000,0.181
76.6800,0.166
76.9600,0.161
77.2400,0.181
77.5200,0.193
77.8000,0.167
78.0800,0.171
78.3600,0.190
78.6400,0.171
78.9200,0.190
79.2000,0.202
79.4800,0.242
79.7600,0.232
80.0000,0.272